Academic Period,Academic Level,Instructional Method,Course Subjects,Section,Course Definition,Abbreviated Title,Description,All Instructors,Enrollment Count,Section Capacity,Section Status,All Conflicting Activity Offerings,Section Details,Locations,Meeting Patterns,Meeting Day Patterns,Start Time,End Time,Subject,Course Number,Section Number,Hidden Course Section
Fall 2023,Undergraduate,Lecture,American Studies,AMST 111-02 - Global Valley,AMST 111 - Global Valley,Global Valley,"[Pre-1900] Drawing on a wide range of primary materials, and taking advantage of the ease of visiting the sites of many of the topics we study, this course offers an introduction to American Studies through an exploration of the Connecticut River Valley that stresses both the fascination of detailed local history and the economic, political, social, and cultural networks that tie this place to the world. Topics may include conflicts and accommodations between Native peoples and English settlers; changing uses of land and resources; seventeenth-century witchcraft trials; the American Revolution and Shays rebellion; religious revivalism of the Great Awakening; abolitionist and other nineteenth-century reform movements; tourism and the scenic including Thomas Cole's famous painting of the oxbow; immigration, industrialization and deindustrialization, especially in the cities of Holyoke and Springfield; educational institutions and innovations; the Cold War, the reach of the ""military industrial complex"" into local educational institutions, and ""the bunker""; the sanctuary movement; feminist and gay activism; present environmental, mass incarceration, and other social equity issues; and of course, Emily Dickinson's poetry.
Limited to 20 students per section. 8 seats per section reserved for first-year students. Fall semester. Professors Brooks and Sánchez-Eppler.

How to handle overenrollment: Preference given to majors, and first and second year students as this is an introductory course.

Students who enroll in this course will likely encounter and be expected to engage in the following intellectual skills, modes of learning, and assessment: Emphasis on discussion, reading, written work, field trips, critical analysis, independent research, and exposure to a wide range of American Studies interpretive methods including interpreting landscapes, material culture objects, poems, novels, deeds, maps, archival manuscripts, photographs, and paintings.  This course aims to foster critical engagement with the history of colonialism and of diverse forms of inequality in the Connecticut River valley.",Karen Sanchez-Eppler,4,0,Open,,Tuesday/Thursday | 10:00 AM - 11:20 AM,,Tuesday/Thursday | 10:00 AM - 11:20 AM,Tuesday/Thursday,07:00,08:20,American Studies,111,02,
Fall 2023,Undergraduate,Lecture,"American Studies

Black Studies",AMST 130-01/ BLST 130-01 - Transnational America,AMST 130/ BLST 130 - Transnational America,Transnational America,"(Offered as AMST 130 and BLST 130[D]) The hustle and flow of bodies, ideas, inequalities and solidarities is core to our increasingly globalized world. This course offers an introduction to the Americas as a transnational space. We will explore the interplay of race, gender, ethnicity, sexuality, and nationality from interdisciplinary perspectives. We will draw examples from the United States, Canada, the Caribbean, and Latin America. Students will learn through a variety of methods including textual analysis, feminist ethnography, archival research, and cultural studies. We will also examine multiple approaches to American Studies such as critical race and ethnic studies, feminist and queer studies, indigenous studies, as well as theories of decolonization and settler colonialism. We will grapple with the complexities of identity and difference, immigration and border control, slavery, colonization, and empire.
Limited to 20 students. Fall semester. Assistant Professor Jolly.

How to handle overenrollment: Preference will be given to first year students and sophomores and American Studies and Black Studies majors.

Students who enroll in this course will likely encounter and be expected to engage in the following intellectual skills, modes of learning, and assessment: emphasis on written work, critical reflections, qualitative work, group-based discussions, cultural analysis, ethnographic analysis, critical engagements with linkages in various ethnic studies fields; open engagements with difference, identity, and nuanced interrogations of the inner-workings of power, unsettling racism and colonialism in a transnational context.",Jallicia Jolly,4,20,Open,,Tuesday/Thursday | 1:00 PM - 2:20 PM,,Tuesday/Thursday | 1:00 PM - 2:20 PM,Tuesday/Thursday,10:00,11:20,American Studies,130,01,
Fall 2023,Undergraduate,Lecture,American Studies,AMST 205-01 - Sports in America,AMST 205 - Sports in America,Sports in America,"Sports infiltrate American lives.  Whether we are active participants, fans, or only disinterested consumers of media, we cannot escape the influence sport has on American society. Moreover, the world of sports is the place where discussions of major societal issues—racism, gender inequality, labor rights—most prominently arise in the public sphere. Media often point to sport as being emblematic of the most powerful myths about American culture and identity. Yet, few people have an appreciation for how sports in American society and their meaning have evolved over time. This course is designed to offer such an understanding and promote critical analysis of the role of sports in our individual and collective lives. We will study and discuss contemporary scholarship on the history of American sport, from roughly 1800 to the present, as well as related literature and documentary film.
Limited to 25 students.  Fall semester.  Professor Hayashi.

How to handle overenrollment: Preference will be given to American Studies majors.

Students who enroll in this course will likely encounter and be expected to engage in the following intellectual skills, modes of learning, and assessment: class discussions, small group work, short written assignments, and oral presentations.",Robert Hayashi,13,25,Open,,Tuesday/Thursday | 2:30 PM - 3:50 PM,,Tuesday/Thursday | 2:30 PM - 3:50 PM,Tuesday/Thursday,11:30,12:50,American Studies,205,01,
Fall 2023,Undergraduate,Lecture,American Studies,"AMST 217-01 - Religion, Democracy","AMST 217 - Religion, Democracy","Religion, Democracy","[Pre-1900] The United States has inscribed the separation of church and state into its constitutional order, and yet Americans have for two centuries been more deeply committed to religious faith and practice than any other people in the Western world. This course endeavors to explore that paradox. Topics addressed include the changing meanings of ""the city on a hill""; the varieties of millennial belief and utopian community; the relationship between religion, ethnicity, and gender; religious political activism, including abolition, prohibition, anti-war and anti-abortion movements; and the limits of religious tolerance from movements against Catholics and Mormons to recent warnings of a ""clash of civilizations"" with Muslim cultures.
Limited to 25 students. Fall semester. Professors Couvares.

How to handle overenrollment: Preference given to majors, then first and second year students

Students who enroll in this course will likely encounter and be expected to engage in the following intellectual skills, modes of learning, and assessment: Emphasis on discussion, reading, written work, critical analysis, and at least one field trip; and exposure to various American Studies readings, ranging from the colonial era to the present; and the use of various methods, including interpreting historical, sociological and other scholarly work, as well as poems, novels, photographs, and paintings.",Francis Couvares,7,25,Open,,Tuesday/Thursday | 8:30 AM - 9:50 AM,,Tuesday/Thursday | 8:30 AM - 9:50 AM,Tuesday/Thursday,05:30,06:50,American Studies,217,01,
Fall 2023,Undergraduate,Lecture,American Studies,AMST 219-01 - Rebels and Reformers:,AMST 219 - Rebels and Reformers:,Rebels and Reformers:,"This course examines the experiences of women from diverse backgrounds during the Progressive Era (1890-1920). During this period characterized by rapid industrialization, mass immigration, and contested civil rights, women advocated for reforms of all kinds. But they did not always share the same visions of progress. Course units on labor, settlement work, sexual and racial politics, education, and physical culture will put these competing visions in historical context. Who defined the terms and goals of progress? Elite reformers worked for the betterment of society, but in whose interests? And what about the anarchists, who refused to play by the rules? Primary course materials will include periodical literature, pamphlets, political tracts, and works of literature. We will also examine historical writing, visual art, and archival material in the Sophia Smith Collection of Women’s History at Smith College.
Limited to 25 students. Fall semester. Senior Lecturer Bergoffen.

How to handle overenrollment: If overenrolled, preference will be given to American Studies majors.

Students who enroll in this course will likely encounter and be expected to engage in the following intellectual skills, modes of learning, and assessment: Writing and collaborating are central practices and goals in this course.  Students will write regularly--during class sessions, reflecting on discussions and course materials, composing short essays, and reporting on research.  Students will collaborate in small groups, learn archival practices, and engage in research.",Wendy Bergoffen,1,25,Open,,Tuesday/Thursday | 1:00 PM - 2:20 PM,,Tuesday/Thursday | 1:00 PM - 2:20 PM,Tuesday/Thursday,10:00,11:20,American Studies,219,01,
Fall 2023,Undergraduate,Lecture,"American Studies

Education Studies

English",AMST 220-01/ EDST 120-01/ ENGL 120-01 - Reading/Writing/Teaching,AMST 220/ EDST 120/ ENGL 120 - Reading/Writing/Teaching,Reading/Writing/Teaching,"(Offered as ENGL 120 and EDST 120) ​​This course considers from many perspectives what it means to read and write and learn and teach both for ourselves and for others. As part of the work of this course, in addition to the usual class hours, students will serve as weekly tutors and classroom assistants in adult basic education centers in nearby towns. Thus this course consciously engages with the obstacles to and the power of education through course readings, through self-reflexive writing about our own varied educational experiences, and through weekly work in the community. Although this course presses participants to reflect a great deal about teaching, this course does not teach how to teach. Instead it offers an exploration of the contexts and processes of education, and of the politics and desires that suffuse learning. Course readings range across literary genres including essays, poems, autobiographies, and novels in which education and teaching figure centrally, as well as readings in ethnography, sociology, psychology, and philosophy. The writing assignments cross many genres as well.
Limited to 18 students. Fall semester: Professor Frank. Spring semester: Lecturer Reardon.

How to handle overenrollment: Pre-registered students have priority.

Students who enroll in this course will likely encounter and be expected to engage in the following intellectual skills, modes of learning, and assessment: Fall semester: emphasis on written work, readings, tutoring at off-campus sites. Spring semester: emphasis on close reading and written work, oral presentations, tutoring in the community,  co-editing group work.",Judith Frank,16,18,Open,,Monday/Wednesday | 2:00 PM - 3:20 PM,,Monday/Wednesday | 2:00 PM - 3:20 PM,Monday/Wednesday,11:00,12:20,English,120,01,
Fall 2023,Undergraduate,Lecture,American Studies,AMST 238-01 - Indigenous Books and Art,AMST 238 - Indigenous Books and Art,Indigenous Books and Art,"In September 2023 the “Boundless” Exhibition will open at the Mead Art Museum featuring Native American artists and books from the Kim-Wait/Eisenberg Native American Literature Collection. This course enables students to learn about Native American literature and art production through the “Boundless” exhibit, and through readings and research related to Native American artistic traditions and literary practices. As an interdisciplinary course, taught within American Studies, students will work with texts from the Amherst Native Literature collection and choose a Native artist from the Mead’s exhibit to study in more depth. Some questions we will consider in our class discussions: What is the relationship between text and image within different Native American artistic traditions? From ledger books to the work of Mary Sulley and more contemporary Native performers and artists, how have Indigenous creators used the site of culture to contend with the shifting challenges that arise out of settler colonialism? How have Native artists and writers collaborated to produce cultural projects that celebrate Indigenous epistemologies? How do American and Indigenous artistic practices and traditions, in terms of literature, visual art, and film, overlap, critique, or enliven one another? This course is centered around Indigenous approaches to learning and will enable students to deepen their understanding of the relationships between research, museums, archives, and Indigenous cultural representations that contend with the legacies of colonization. Students will produce a final assignment that contributes to the Mead Museum’s “Boundless” Exhibit.
Limited to 15 students. Fall semester. Professor Vigil.
Pending Faculty Approval

How to handle overenrollment: Preference will be given to students completing the Five College NAIS Certificate program, American Studies majors, Art & the History of Art majors, and first and second year students.

Students who enroll in this course will likely encounter and be expected to engage in the following intellectual skills, modes of learning, and assessment: collaborative group work, readings and discussion, field trips, artistic work, independent research, visual analysis, oral presentations, and writing/storytelling.",Kiara Vigil,5,15,Open,,Wednesday/Friday | 12:30 PM - 1:50 PM,,Wednesday/Friday | 12:30 PM - 1:50 PM,Wednesday/Friday,09:30,10:50,American Studies,238,01,
Fall 2023,Undergraduate,Lecture,"American Studies

Sociology",AMST 268-01/ SOCI 268-01 - Rethinking Race & Class,AMST 268/ SOCI 268 - Rethinking Race & Class,Rethinking Race & Class,"(Offered as AMST 268 and SOCI 268) This course will bring a sociological lens to contemporary race and class relations in rural America. Drawing from social-historical analyses, ethnography, interview-based research, and memoir, we will look at the social forces at the base of shifting rural demographics, as well as how these shifts are being experienced in rural daily life. Central to the course will be an analysis of how place shapes the relationship between race and class, and how these place-based relationships in turn shape individual and collective identity. Throughout the course we will reflect on what anti-racist, equitable community building might look like in rural America and beyond.
Fall semester.  Professor Schmalzbauer.

How to handle overenrollment: null

Students who enroll in this course will likely encounter and be expected to engage in the following intellectual skills, modes of learning, and assessment: emphasis on written work; readings; in-depth discussion; and small group seminar presentations.",Leah Schmalzbauer,21,0,Open,,Tuesday/Thursday | 11:30 AM - 12:50 PM,,Tuesday/Thursday | 11:30 AM - 12:50 PM,Tuesday/Thursday,08:30,09:50,American Studies,268,01,
Fall 2023,Undergraduate,Lecture,"American Studies

Black Studies

English",AMST 361-01/ BLST 361-01/ ENGL 276-01 - Remixing and Remaking,AMST 361/ BLST 361/ ENGL 276/ FAMS 361 - Remixing and Remaking,Remixing and Remaking,"(Offered as AMST 361, BLST 361, and ENGL 276) Through a close reading of texts by African American authors, we will critically examine literary form and technique alongside the representation of race, gender, sexuality, and class. Coupled with our explication of poems, short stories, novels, and literary criticism, we will explore the stakes of adaptation in visual culture. Students will analyze the film and television adaptations of twentieth-century fiction. Authors will include Toni Morrison, Lorraine Hansberry, Alice Walker, and Gloria Naylor. Expectations include three writing projects, a group presentation, and various in-class assignments.
Limited to 18 students. Priority given to those students who attend the first day of the class. Open to first-year students with consent of the instructor. Fall semester. Professor Henderson.

How to handle overenrollment: Priority given to AMST majors; others admitted to balance by class, year, major.

Students who enroll in this course will likely encounter and be expected to engage in the following intellectual skills, modes of learning, and assessment: emphasis on written work, readings, oral presentations, group work, in-class quizzes or exams, artistic work, field work or trips, visual analysis and aural analysis.",Aneeka Henderson,0,18,Open,,Wednesday/Friday | 12:30 PM - 1:50 PM,,Wednesday/Friday | 12:30 PM - 1:50 PM,Wednesday/Friday,09:30,10:50,American Studies,361,01,
Fall 2023,Undergraduate,Lecture,"American Studies

Black Studies

English",AMST 368-01/ BLST 368-01/ ENGL 368-01 - Discipline and Defiance,AMST 368/ BLST 368/ ENGL 368 - Discipline and Defiance,Discipline and Defiance,"(Offered as AMST 368, BLST 368 and ENGL 368) History has long valorized passive, obedient, and long-suffering African American women alongside assertive male protagonists and savants. This course provides an alternative narrative to this representation by exploring the ways in which African American female characters, writers, and artists have challenged ideals of stoicism and submission. Using an interdisciplinary focus, we will critically examine transgression across time and space in diverse twentieth- and early twenty-first century literary, sonic, and visual texts. Expectations include three writing projects, a group presentation, and various in-class assignments.
Open to first-year students with consent of the instructor. Priority given to students who attend the first day of class. Limited to 18 students. Fall semester. Professor Henderson.

How to handle overenrollment: Priority given to students who attend the first day of class.

Students who enroll in this course will likely encounter and be expected to engage in the following intellectual skills, modes of learning, and assessment: emphasis on written work, readings, oral presentations, group work, in-class quizzes or exams, artistic work, field work or trips, visual analysis and aural analysis.",Aneeka Henderson,3,18,Open,,Wednesday/Friday | 2:00 PM - 3:20 PM,,Wednesday/Friday | 2:00 PM - 3:20 PM,Wednesday/Friday,11:00,12:20,American Studies,368,01,
Fall 2023,Undergraduate,Lecture,"American Studies

English

Political Science",AMST 387-01/ ENGL 397-01/ POSC 397-01 - Abiayala: Activism & Lit,AMST 387/ ENGL 397/ POSC 397 - Abiayala: Activism & Lit,Abiayala: Activism & Lit,"(Offered as AMST 387, POSC 397, and LLAS ) This course approaches Abiayala through the lenses of activism and literature. Abiayala, which can be translated as “land in its full maturity” or “land of vital blood,” is how the Kuna peoples (Panama) refer to the continent of the Americas and is increasingly used by Indigenous movements to decolonize epistemologies, or ways of knowing. This course recognizes the constant exchange and overlap between Indigenous activism and literature, analyzing how they nurture each other and at times hide within one another in different regions and across time. The course engages ancestral narratives like the Kiché Maya Popol Wuj as well as queer poetics in contemporary Maya resistance, weaving Zapatista story-telling with Amazonian philosophies. Respecting the relationship between word and image in Indigenous literature, we will engage with a variety of forms, from codices to comics, from epic stories of creation to contemporary poetry, posters and textiles. Experiential learning is a core component of this course. Students will collaborate with the Maya Kaqchikel Council of Elders in restoring relations with their original annals currently held at the American Philosophical Society. They will spend time with the Kim-Wait/Eisenberg Native American Literature Collection in the Frost Library Archives, visit the “Boundless” exhibit of Indigenous art and literature at the Mead Museum, and participate in the Five College Native American and Indigenous Studies Symposium. Students will have the opportunity to engage in exchange with visiting artists, authors and activists, including the Maya weavers of Guatemala who protect their textiles as “the books that colonization was not able to destroy.” 
Limited to 15 students. Preference will be given to English, American Studies, LLAS and Political Science majors and to students pursuing the Five College Native American and Indigenous Studies Certificate. Fall semester. Professor Brooks and Karl Loewenstein Senior Lecturer Picq.
Pending Faculty Approval

How to handle overenrollment: Preference will be given to English, American Studies, LLAS and Political Science majors and to students pursuing the Five College Native American and Indigenous Studies Certificate.

Students who enroll in this course will likely encounter and be expected to engage in the following intellectual skills, modes of learning, and assessment: Close reading and visual analysis, archival research, collaborative research and group work, community engagement, field trips.","Lisa Brooks

Manuela Picq",13,15,Open,,Tuesday/Thursday | 1:00 PM - 2:20 PM,,Tuesday/Thursday | 1:00 PM - 2:20 PM,Tuesday/Thursday,10:00,11:20,English,397,01,
Fall 2023,Undergraduate,Lecture,American Studies,AMST 390-01 - Special Topics (Special Topics),AMST 390 - Special Topics,Special Topics,"Independent reading course.
Fall and spring semesters. The Department.

How to handle overenrollment: null

Students who enroll in this course will likely encounter and be expected to engage in the following intellectual skills, modes of learning, and assessment: independent research, critical analysis, close reading, and extended writing.",,0,0,Open,,,,,,,,American Studies,390,01,
Fall 2023,Undergraduate,Lecture,"American Studies

Education Studies",AMST 468-01/ EDST 468-01 - Resrch Methods: Amer Cul,AMST 468/ EDST 468 - Resrch Methods: Amer Cul,Resrch Methods: Amer Cul,"(Offered as AMST 468 and EDST 468) This course is designed to provide American Studies majors, as well as Education Studies majors and others, with a methodological grounding to conduct interdisciplinary research. Students will have the opportunity to conduct research on a topic of their own choosing and develop a research prospectus. Students will be exposed to and experiment with a wide range of theoretical and methodological approaches, gain familiarity with methods such as participant observation, interview and oral history practice, and study a range of materials—visual, literary, print, digital, audio—via a traditionally interdisciplinary American Studies praxis. Students will gauge the utility of various theoretical and methodological approaches to determine which are most useful for their own independent work. A major requirement of this course is participation in a ""work-in-progress"" presentation as part of a public mini-conference at the end of the semester.
Limited to 18 students. Open to juniors and seniors as a research seminar; or with consent of the instructor. Fall semester. Professor Sanchez-Eppler and Visiting Professor Luschen.

How to handle overenrollment: Preference will be given to junior and senior American Studies majors, followed by students in Education Studies.

Students who enroll in this course will likely encounter and be expected to engage in the following intellectual skills, modes of learning, and assessment: an emphasis on written work, readings, independent research, oral presentations, group work.","Karen Sanchez-Eppler

Kristen Luschen",7,18,Open,,Wednesday | 2:30 PM - 5:30 PM,,Wednesday | 2:30 PM - 5:30 PM,Wednesday,11:30,14:30,American Studies,468,01,
Fall 2023,Undergraduate,Lecture,American Studies,AMST 490-01 - Special Topics (Special Topics),AMST 490 - Special Topics,Special Topics,"Independent reading course.
Fall and spring semesters. The Department.

How to handle overenrollment: null

Students who enroll in this course will likely encounter and be expected to engage in the following intellectual skills, modes of learning, and assessment: independent research, critical analysis, close reading, and extended writing.",,0,0,Open,,,,,,,,American Studies,490,01,
Fall 2023,Undergraduate,Lecture,American Studies,AMST 496-01 - Capstone Project,AMST 496 - Capstone Project,Capstone Project,"A one-semester project—either a shorter essay or some other form of independent interdisciplinary research and production. The capstone project serves as the grounds for a comprehensive evaluation of each student's achievement in the major.
Fall and spring semesters. The Department.

How to handle overenrollment: null

Students who enroll in this course will likely encounter and be expected to engage in the following intellectual skills, modes of learning, and assessment: independent research, critical analysis, close reading, and extended writing.",,0,0,Open,,,,,,,,American Studies,496,01,
Fall 2023,Undergraduate,Lecture,American Studies,AMST 498-01 - Senior Honors (Senior Honors),AMST 498 - Senior Honors,Senior Honors,"Fall semester. The Department.

How to handle overenrollment: null

Students who enroll in this course will likely encounter and be expected to engage in the following intellectual skills, modes of learning, and assessment: independent research, critical analysis, close reading, and extended writing.",,2,0,Open,,,,,,,,American Studies,498,01,
Fall 2023,Undergraduate,Lecture,Anthropology,ANTH 201-01 - Anthro & Science Fiction,ANTH 201 - Anthro & Science Fiction,Anthro & Science Fiction,"How can anthropology help us understand the cultural assumptions, empirical knowledge, and causal and interpretive theories underlying science fiction and related genres such as fantasy, magical realism, and social science fiction? How can anthropology help writers of such genres draw on more valid and plausible assumptions, knowledge, and theories as they build fictional worlds and characters? How can fictional writers’ hypotheses about what events, people, and processes might look like under different conditions, and their efforts to write about such hypotheses in innovative, engaging, and thought-provoking ways, help us think about how anthropologists might write about real-life experiences that differ from those we already understand? This course will help students think about such questions by engaging with anthropological studies and science fiction stories that relate to each other in enlightening ways. We will read and discuss stories that describe how people in a variety of societies might react to experiences that have not yet been documented in our world, as well as anthropological ethnographies of how real people in those same societies deal with analogous experiences in our world. As part of this process, we will discuss the nature and meaning of life, the universe, science, and human behavior, and consider how understandings of anthropology, science fiction, and related genres might help us predict the outcomes of current news events.
Limited to 19 students. Admission with consent of the instructor. Fall semester. Professor Fong.

How to handle overenrollment: Priority given to Anthropology majors and to students who contribute to a balance between different graduation years

Students who enroll in this course will likely encounter and be expected to engage in the following intellectual skills, modes of learning, and assessment: Emphasis on written work, readings, oral presentations, group work.",Vanessa Fong,32,19,Closed,,Tuesday/Thursday | 8:30 AM - 9:50 AM,,Tuesday/Thursday | 8:30 AM - 9:50 AM,Tuesday/Thursday,05:30,06:50,Anthropology,201,01,
Fall 2023,Undergraduate,Lecture,"Anthropology

Sexuality Wmn's & Gndr Studies

Sociology",ANTH 209-01/ SOCI 207-01/ SWAG 209-01 - Feminist Science Studies,ANTH 209/ SOCI 207/ SWAG 209 - Feminist Science Studies,Feminist Science Studies,"(Offered as ANTH 209, SOCI 207, and SWAG 209) This seminar uses feminist theory and methods to consider scientific practice and the production of scientific knowledge. We will explore how science reflects and reinforces social relations, positions, and hierarchies as well as whether and how scientific practice and knowledge might be made more accurate and socially beneficial. Central to this course is how assumptions about sex, gender and race have shaped what we have come to know as “true,” “natural,” and “fact.” We will explore interdisciplinary works on three main themes: feminist critiques of objectivity; the structure and meanings of natural variations, especially human differences; and challenges to familiar binaries (nature/culture, human/animal, female/male, etc).
Students who completed SWAG 108/ANTH 211 Feminist Science Studies in Fall 2019/20 will need to consult with Professor Karkazis prior to enrolling.
Limited to 20 students with 5 seats reserved for first-year students. Fall and spring semesters. Professor Karkazis.

How to handle overenrollment: Priority given to SWAGS majors; then students will be selected to maximize diversity across major, class year, and institution

Students who enroll in this course will likely encounter and be expected to engage in the following intellectual skills, modes of learning, and assessment: Readings, written work, class lead, oral presentation, analysis.",Katrina Karkazis,16,21,Open,,Tuesday/Thursday | 10:00 AM - 11:20 AM,,Tuesday/Thursday | 10:00 AM - 11:20 AM,Tuesday/Thursday,07:00,08:20,Sexuality Wmn's & Gndr Studies,209,01,
Fall 2023,Undergraduate,Lecture,Anthropology,ANTH 245-01 - Medical Anthropology,ANTH 245 - Medical Anthropology,Medical Anthropology,"The aim of this course is to introduce the ways that medical anthropologists understand illness, suffering, and healing as taking shape amidst a complex interplay of biological, psychological, social, political-economic, and environmental processes. The course is designed to engage a broad range of medical anthropology topics, theoretical approaches, and research techniques by examining case studies concerned with such issues as chronic illness and social suffering, ritual and religious forms of healing, illness and inequality, medicalization, the global AIDS crisis, the social life of new medical technologies, and the politics of global health and humanitarian intervention. A basic premise of the course is that an understanding of illness, health, and the body requires an understanding of the contexts in which they are experienced, contexts contingently shaped by interwoven processes of local, national, and global significance. Particular emphasis will thus be placed on ethnographic approaches to the lived context in which illness and other forms of suffering are experienced, narrated, and addressed. Our focus will be comparative, treating illness, suffering, and healing in a range of societies and settings—from Haiti to China, from urban Brazil to rural Nepal, from the townships of South Africa to genetic labs in the United States.
Limited to 30 students. Fall semester.  Professor C. Dole.

How to handle overenrollment: priority will be given to seniors and majors

Students who enroll in this course will likely encounter and be expected to engage in the following intellectual skills, modes of learning, and assessment: Emphasis on readings and written work.",Christopher Dole,49,30,Closed,,Monday/Wednesday | 12:30 PM - 1:50 PM,,Monday/Wednesday | 12:30 PM - 1:50 PM,Monday/Wednesday,09:30,10:50,Anthropology,245,01,
Fall 2023,Undergraduate,Lecture,"Anthropology

Asian Languages & Civilization",ANTH 265-01/ ASLC 266-01 - The Middle East,ANTH 265/ ASLC 266 - The Middle East,The Middle East,"(Offered as ANTH 265 and ASLC 266) This course draws on ethnographic writings, documentary film, and literary accounts to examine the everyday realities of people living in the region commonly referred to as the Middle East. Rather than attempting a survey of the entire region, the course explores a number of important themes in the anthropology of the Middle East. These themes include, among others: gender and sexuality, religious piety, urban space, migration, and political protest. By the end of the course, students will have gained an understanding of some of the most pressing issues being faced in the region, and the ways that anthropologists have explored these issues. No previous knowledge of the Middle East or anthropology is assumed.   
Limited to 25 students. Fall semester.   Professor Dole.

How to handle overenrollment: Priority given to majors and second and third year students.

Students who enroll in this course will likely encounter and be expected to engage in the following intellectual skills, modes of learning, and assessment: emphasis on readings, written work, and independent research.",Christopher Dole,3,25,Open,,Monday/Wednesday | 3:00 PM - 4:20 PM,,Monday/Wednesday | 3:00 PM - 4:20 PM,Monday/Wednesday,12:00,13:20,Anthropology,265,01,
Fall 2023,Undergraduate,Lecture,Anthropology,"ANTH 268-01 - Race, Nature, Power","ANTH 268 - Race, Nature, Power","Race, Nature, Power","How do appeals to nature—so called “natural” traits or “essences”—undergird the way race adheres to specific bodies? How does race, in turn, go beyond bodies to mark particular “natural” landscapes and non-human entities as other? In short, how can we understand the historically powerful relationship between race and nature? Drawing on anthropology and critical race studies, this course examines how race and nature work to convey “timeless truths,” inform notions of identity, and justify inequalities. Throughout the semester, we consider how race and nature act through bodies, environments, discourses, and metaphors to create new forms of belonging and exclusion. To these ends, we analyze concepts such as wilderness/wildness, scientific racism, contamination and purity, human-animal relations, sovereignty and nationalism, environmentalism, and environmental disasters to explore how race gets naturalized, and nature racialized.
Limited to 25 students.  Fall semester. Professor Nguyen

How to handle overenrollment: Anthro & Soc majors given first priority, second priority given to balancing out different cohort years 

Students who enroll in this course will likely encounter and be expected to engage in the following intellectual skills, modes of learning, and assessment: an emphasis on close reading, discussion, and written assignments.",Victoria Nguyen,3,25,Open,,Tuesday/Thursday | 10:00 AM - 11:20 AM,,Tuesday/Thursday | 10:00 AM - 11:20 AM,Tuesday/Thursday,07:00,08:20,Anthropology,268,01,
Fall 2023,Undergraduate,Lecture,Anthropology,ANTH 296-01 - Asian Am. Racialization,ANTH 296 - Asian Am. Racialization,Asian Am. Racialization,"What does it mean to be Asian American today? At once marginalized and woefully unspecific, Asian American identity seems to occupy a purgatorial status in the American racial imagination. How have Asian Americans been understood within, and how do they understand themselves within, white institutions, anti-black hierarchies, and capitalist orders? And what are the cumulative psychic effects of their quotidian, uneventful, and often unspoken racializations? The course begins by engaging a variety of historical events, social movements, racialized imaginaries to consider how Asian American history is vitally shaped by not only repression and assimilation, but also radicalism and innovation. From this foundation, we then examine how Asian American writers, artists, and thinkers reckon with in/visibility, ambiguity, and the “minor intensities” of Asian American life through stories, poetry, film, and visual art. We will engage in close reading and analysis of these materials, with an eye toward their specific social, historical, and political contexts as we read them alongside a range of critical theory on the politics of identity and subjectivity.
 
Limited to 25 students.  Fall semester.  Professor Nguyen.

How to handle overenrollment: Anthropology and Sociology majors given first priority, second priority given to balancing out different cohort years.

Students who enroll in this course will likely encounter and be expected to engage in the following intellectual skills, modes of learning, and assessment: emphasis on close reading, discussion, and written assignments.",Victoria Nguyen,13,25,Open,,Tuesday/Thursday | 1:00 PM - 2:20 PM,,Tuesday/Thursday | 1:00 PM - 2:20 PM,Tuesday/Thursday,10:00,11:20,Anthropology,296,01,
Fall 2023,Undergraduate,Lecture,"Anthropology

Asian Languages & Civilization",ANTH 317-01/ ASLC 317-01 - Researching China,ANTH 317/ ASLC 317 - Researching China,Researching China,"(Offered as ANTH 317 and ASLC 317) This course teaches students how to design research projects and analyze data about people in China. Students will read about and discuss previous findings from the instructor’s longitudinal project about Chinese only-children and their families, and findings from comparable projects in China and elsewhere. Course assignments will be tailored to the interests, skills, and academic background of each student, so first-year students, sophomores, and students with no Chinese language skills are welcome and just as likely to succeed as juniors, seniors, and students with Chinese language skills. Each student will work not only on assignments suitable for his/her current skills and interests, but also read the work of other students with different skills, interests, and disciplinary knowledge and participate in discussions of their work, so all students will learn about the many different kinds of skills and research methods that can help them gain a better understanding of China.
Requisite: Chinese language skills or ANTH 112, 115, 288, 318, 323, or 332, or a similar course. Admission with consent of the instructor. Limited to 20 students. Fall semester.  Professor Fong.

How to handle overenrollment: Preference will be given to anthropology majors and students who contribute to balance between the different class years represented

Students who enroll in this course will likely encounter and be expected to engage in the following intellectual skills, modes of learning, and assessment: TBA",Vanessa Fong,2,20,Open,,Monday/Wednesday/Friday | 8:30 AM - 9:20 AM,,Monday/Wednesday/Friday | 8:30 AM - 9:20 AM,Monday/Wednesday/Friday,05:30,06:20,Anthropology,317,01,
Fall 2023,Undergraduate,Lecture,Anthropology,ANTH 329-01 - Feeling Politics,ANTH 329 - Feeling Politics,Feeling Politics,"This course is about feeling politics as much as about the political power of feelings. How often do you feel outraged at the state of politics? Do you ever experience an inexplicable love for political symbols? Do they ever make you cringe? Or perhaps you glean much pleasure from the nature of modern political life? Do you cry, laugh, get scared, or feel overwhelmed by political spectacles that make up our 24/7 existence? If so, like all of us, you experience politics at a corporeal level. Instead of discounting these feelings as irrational and secondary to reasoned deliberations and solemn institutions, this seminar takes them seriously. The texts in this upper-level, discussion-based course consider public political life as an affect-laden world where emotional and bodily attachments – some articulate, others unconscious – are as indispensable and ubiquitous as discourse and procedure. Even when our feelings seem deeply personal, the forms of their expression reveal larger histories of modernity, imperialism, race, labor, and the economy, among others. The seminar is ultimately aimed at understanding how our senses, much like our institutions, are shaped by cultural differences. 
Limited to 25 students. Fall semester. Professor Chowdhury.

How to handle overenrollment: Priority will be given to majors in Anthropology and Sociology

Students who enroll in this course will likely encounter and be expected to engage in the following intellectual skills, modes of learning, and assessment: Emphasis on written work, intensive reading, and speaking in class",Nusrat Chowdhury,3,25,Open,,Wednesday | 2:00 PM - 4:45 PM,,Wednesday | 2:00 PM - 4:45 PM,Wednesday,11:00,13:45,Anthropology,329,01,
Fall 2023,Undergraduate,Lecture,"Anthropology

Sexuality Wmn's & Gndr Studies

Sociology",ANTH 453-01/ SOCI 453-01/ SWAG 453-01 - Feminist & Queer Ethnog,ANTH 453/ SOCI 453/ SWAG 453 - Feminist & Queer Ethnog,Feminist & Queer Ethnog,"(Offered as SWAG 453, ANTH 453, and SOCI-453) How have feminist and queer approaches shaped the questions, methods, and ethics of ethnographic research? This course highlights key questions and dominant paradigms of the field as well as emphasizing qualitative ethnographic research including interviewing and fieldwork. As such, we will engage the practical question of how to research, observe, describe, record, and present material about feminist and queer politics and activism.
Required: At least two courses dealing substantively with gender/sexuality. Open to junior and seniors; sophomores require permission from the professor; not open to first-year students. Limited to 20 students. Fall semester. Professor Karkazis.

How to handle overenrollment: Priority given to SWAGS seniors and juniors, then to Anthropology and Sociology seniors and juniors, then to a balance of seniors and juniors from other Amherst departments and 5-college students, and finally to sophomores.

Students who enroll in this course will likely encounter and be expected to engage in the following intellectual skills, modes of learning, and assessment: Emphasis on readings, oral presentations, independent research, written work.",Katrina Karkazis,2,20,Open,,Thursday | 1:00 PM - 3:45 PM,,Thursday | 1:00 PM - 3:45 PM,Thursday,10:00,12:45,Sexuality Wmn's & Gndr Studies,453,01,
Fall 2023,Undergraduate,Lecture,Anthropology,ANTH 490-01 - Special Topics (Special Topics),ANTH 490 - Special Topics,Special Topics,"Independent reading course. A full course.
Fall and spring semesters. The Department.

How to handle overenrollment: null

Students who enroll in this course will likely encounter and be expected to engage in the following intellectual skills, modes of learning, and assessment: emphasis on written work, readings, independent research.",,0,0,Open,,,,,,,,Anthropology,490,01,
Fall 2023,Undergraduate,Lecture,Anthropology,ANTH 490H-01 - Special Topics,ANTH 490H - Special Topics,Special Topics,"Independent reading course. A half course.
Fall and spring semesters. The Department.

How to handle overenrollment: null

Students who enroll in this course will likely encounter and be expected to engage in the following intellectual skills, modes of learning, and assessment: emphasis on written work, readings, independent research.",,0,0,Open,,,,,,,,Anthropology,490H,01,
Fall 2023,Undergraduate,Lecture,Anthropology,ANTH 498-01 - Senior Honors (Senior Honors),ANTH 498 - Senior Honors,Senior Honors,"Fall semester. The Department.

How to handle overenrollment: null

Students who enroll in this course will likely encounter and be expected to engage in the following intellectual skills, modes of learning, and assessment: emphasis on written work, readings, independent research.",,2,0,Open,,,,,,,,Anthropology,498,01,
Fall 2023,Undergraduate,Lecture,Arabic,ARAB 101-01 - First-Year Arabic I,ARAB 101 - First-Year Arabic I,First-Year Arabic I,"This course starts by thoroughly studying the Arabic alphabet. It introduces the basics of Modern Standard Arabic and a brief exposure to one of the Arabic dialects through the listening, speaking, reading and writing activities. By the end of this course students should be at the Novice-Mid/ Novice-High level and they should be able to:
Accurately recognize the Arabic letters, identify a number of high-frequency, highly contextualized words and phrases including cognates, derive meaning from short, non-complex texts that convey basic information for which there is contextual or extra-linguistic support. Re-reading is often required;
Recognize and begin to understand a number of high-frequency, highly contextualized words and phrases including aural cognates; begin to understand information from sentence-length speech, one utterance at a time, in basic personal and social contexts where there is contextual or extra-linguistic support;
Communicate minimally by using a number of learned words and phrases limited by the particular context in which the language has been learned, initiate social interactions, ask for basic information, and be aware of basic cultural aspects of social interaction in the Arab world, talk about themselves, their education, and family with native speakers of Arabic accustomed to interacting with learners of Arabic as a foreign language;
Write short, simple sentences or a short paragraph about self, daily life, personal experience relying mainly on practiced vocabulary and sentence structures, produces lists, short messages, simple notes, postcards;
Understand aspects of Arab culture including commonly used culturally important expressions and differentiate between formal and colloquial spoken Arabic in limited contexts.
Limited to 18 students. Fall semester. Five College Senior Lecturer Hassan.

How to handle overenrollment: Priority given to ASLC majors, then to class year (seniors first).

Students who enroll in this course will likely encounter and be expected to engage in the following intellectual skills, modes of learning, and assessment: In this course we will use textbooks, audio and video instructional and authentic materials and teacher-prepared materials and exercises. Assessment tools in this course assess the four language skills and are based on attendance and class participation, homework, weekly quizzes, a mid-term and final written exams, in addition to oral presentations and listening evaluations.",Mohamed Hassan,5,18,Open,,Monday/Wednesday/Friday | 8:30 AM - 9:50 AM,,Monday/Wednesday/Friday | 8:30 AM - 9:50 AM,Monday/Wednesday/Friday,05:30,06:50,Arabic,101,01,
Fall 2023,Undergraduate,Lecture,Arabic,ARAB 201-01 - Second-Year Arabic I,ARAB 201 - Second-Year Arabic I,Second-Year Arabic I,"This course expands the scope of the communicative approach, as new grammatical points are introduced (irregular verbs), and develops a greater vocabulary for lengthier conversations. Emphasis is placed on reading and writing short passages and personal notes. This second-year of Arabic completes the introductory grammatical foundation necessary for understanding standard forms of Arabic prose (classical and modern literature, newspapers, film, etc.) and making substantial use of the language.
Requisite: ARAB 102 or equivalent. Limited to 18 students. Fall semester. Five College Lecturer Alswaid.

How to handle overenrollment: Priority given to ASLC majors, then to class year (seniors first).

Students who enroll in this course will likely encounter and be expected to engage in the following intellectual skills, modes of learning, and assessment: Students are expected to make four presentations using technology like Google Slides, write four essays in the form of a story, argument, and analysis, and complete a final project in the form of a collage and present it in class, which will be a summary of the four chapters they learned. For this, students can use pictures and other creative tools.",Ahmad Alswaid,2,18,Open,,Monday/Wednesday/Friday | 8:30 AM - 9:50 AM,,Monday/Wednesday/Friday | 8:30 AM - 9:50 AM,Monday/Wednesday/Friday,05:30,06:50,Arabic,201,01,
Fall 2023,Undergraduate,Lecture,Arabic,ARAB 301-01 - Third-Year Arabic I,ARAB 301 - Third-Year Arabic I,Third-Year Arabic I,"The goal of this course is to help students achieve an Intermediate Mid/ High level of proficiency in Modern Standard Arabic. Students engage with Modern Standard Arabic and one Arabic colloquial variety using the four-skills (reading, writing, speaking, listening) approach. By the end of the course, students will consistently be able to:
Read texts on unfamiliar topics and understand the main ideas without using the dictionary. Text types will address a range of political, social, religious, and literary themes and will represent a range of genres, styles, and periods;
Understand sentence-length speech in basic personal and social contexts dealing with topics of current political, social and cultural interests;
Speak about themselves and others, initiate and sustain conversations on a variety of subjects, describe and narrate in all major time frames;
Engage in written discourse dealing with impersonal and/or abstract topics.
Continue to deepen knowledge of Arab cultures, including their histories, politics, and literatures, learn and use increasingly sophisticated grammatical and rhetorical structures, and add approximately 500 new words and expressions to your active vocabulary.
Requisite: ARAB 202 or equivalent. Limited to 18 students. Fall semester. Five College Senior Lecturer Hassan.

How to handle overenrollment: Priority given to ASLC majors, then to class year (seniors first).

Students who enroll in this course will likely encounter and be expected to engage in the following intellectual skills, modes of learning, and assessment: In this course we will use textbooks, audio and video instructional and authentic materials and teacher-prepared materials and exercises. Assessment tools in this course assess the four language skills and are based on attendance and class participation, homework, quizzes, a mid-term and final written exams, in addition to oral presentations and listening evaluations.",Mohamed Hassan,3,18,Open,,Monday/Wednesday/Friday | 12:30 PM - 1:50 PM,,Monday/Wednesday/Friday | 12:30 PM - 1:50 PM,Monday/Wednesday/Friday,09:30,10:50,Arabic,301,01,
Fall 2023,Undergraduate,Lecture,Arabic,ARAB 401-01 - Media Arabic,ARAB 401 - Media Arabic,Media Arabic,"Media Arabic is an advanced Language fourth-year level course. Students are required to complete a set amount of media-related material during the semester. The course introduces the language of print and the Internet news media to students of Arabic seeking to reach the advanced level, according to the ACTFL standards. It makes it possible for those students to master core vocabulary and structures typical of front-page news stories, recognize various modes of coverage, distinguish fact from opinion, detect bias and critically read news in Arabic. The course enables students to:
Read extended Arabic Media texts with greater accuracy at the advanced level by focusing on meaning, information structure, vocabulary and language form, and markers of cohesive discourse;
Understand the main idea and most supporting details of Arabic media presentations and news and follow stories and descriptions of some length and in various time frames;
Converse comfortably in Arabic in familiar and some unfamiliar situations, and deliver detailed and organized presentations on familiar as well as unfamiliar concrete media topics using various time frames;
Write clear, detailed texts on media related topics, synthesizing and evaluating information and arguments from a number of sources and translating pieces of news from English into Arabic;
Show understanding of cultural differences reflected in the Arabic Media discourse and make appropriate cultural references when interacting in Arabic.
Requisite: ARAB 302 or equivalent. Limited to 18 students. Fall semester. Five College Lecturer Alswaid.

How to handle overenrollment: Priority given to ASLC majors, then to class year (seniors first).

Students who enroll in this course will likely encounter and be expected to engage in the following intellectual skills, modes of learning, and assessment: In this course, students will use a textbook, a range of audio and video instructional and authentic materials and teacher-prepared materials and exercises. The final grade is determined by class participation and assignments, three term-exams, oral presentations and a final term paper.",Ahmad Alswaid,1,18,Open,,Monday/Wednesday | 12:30 PM - 1:50 PM,,Monday/Wednesday | 12:30 PM - 1:50 PM,Monday/Wednesday,09:30,10:50,Arabic,401,01,
Fall 2023,Undergraduate,Lecture,Arabic,ARAB 490-01 - Special Topics (Special Topics),ARAB 490 - Special Topics,Special Topics,"Independent reading course. This is an advanced special topics course that focuses on a certain Arabic topic to help students attain an Advanced High/ Superior level of Arabic language according to the ACTFL standards.
Fall and spring semesters. Five College Teachers of Arabic.

How to handle overenrollment: null

Students who enroll in this course will likely encounter and be expected to engage in the following intellectual skills, modes of learning, and assessment: This course covers an Arabic language related topic with extensive reading, writing, listening and speaking input. Participation in this course requires independent work and initiative.",,0,0,Open,,,,,,,,Arabic,490,01,
Fall 2023,Undergraduate,Lecture,"Architectural Studies

Art & the History of Art",ARCH 105-01/ ARHA 105-01 - Space and Design,ARCH 105/ ARHA 105 - Space and Design,Space and Design,"(Offered as ARCH 105 and ARHA 105) This hands-on design studio will foster innovation as it guides students through the development of conceptual architecture. Through a series of experimental projects that build on each other, students will develop their own design language and experiment with architecture at several scales - from a space for sitting to a dynamic built structure and its integration into a site. We will work through photography and light studies, both hand-drafted and computer aided drawings, as well as physical model-making to understand space and to explore the representation of plan, section, and elevations as well as diagramming and concept models. Guest critics will attend a review, and students will present their work to design professionals and professors.
No prior architecture experience is necessary, but a willingness to experiment and a desire to learn through making are essential.
This course may be taken either before or after ARCH 301, Space and Design: Advanced Design Studio.
Admissions with consent of the instructor. Limited to 12 students. Fall semester: Visiting Instructor Gretchen Rabinkin.
 

How to handle overenrollment: First priority to ARCH majors, then ARHA majors, then sophomores, first-years, juniors, seniors.

Students who enroll in this course will likely encounter and be expected to engage in the following intellectual skills, modes of learning, and assessment: Creative problem solving, research on green building technologies and implementation of the concepts in their own designs, 3D modeling, sketching, and physical model making. Assessment is based on level of exploration, quality of craft, openness to feedback and willingness to pursue multiple iterations of their designs.",Gretchen Rabinkin,0,12,Open,,Tuesday/Thursday | 1:00 PM - 4:00 PM,,Tuesday/Thursday | 1:00 PM - 4:00 PM,Tuesday/Thursday,10:00,13:00,Architectural Studies,105,01,
Fall 2023,Undergraduate,Lecture,"Architectural Studies

Art & the History of Art

Asian Languages & Civilization",ARCH 152-01/ ARHA 152-01/ ASLC 142-01 - Islamic World,ARCH 152/ ARHA 152/ ASLC 142 - Islamic World,Islamic World,"(Offered as ARHA 152, ARCH 152 and ASLC 142) This course, a gateway class for the study of art history and architectural studies, introduces the art, architecture, and urban planning of the Islamic world, from the origins of Islam in the seventh century to the contemporary moment. Among the questions we will address are: When, how, and why was the Qur’an first copied as a written text? Why does the Dome of the Rock in Jerusalem, completed in 691–2 A.D., closely resemble Christian churches and shrines from the same period? Why did medieval Europeans judge objects from the Islamic world, especially those bearing Arabic script, to be sacred in nature? How did commercial and diplomatic exchanges with China and Viking Scandinavia impact the arts of Central Asia and the Middle East during the premodern period? What can contemporary comic books tell us about the visual logic of fifteenth-century Iranian manuscript painting? And how have nineteenth- and twentieth-century artists used photography and film to address the legacies of colonialism and Orientalism? We will attempt to answer these questions through close and careful analysis of objects in a range of media, from silver and rock crystal to silk textiles and video; cities and architectural sites in Spain and India, and the many places in between; and primary and secondary texts. Films, museum websites, musical recordings, and visits to the Mead Art Museum and Amherst’s Archives and Special Collections will supplement readings, lectures, and discussions. No previous background is presumed, and all readings will be available in English.
No enrollment cap. Fall semester. Professor Rice.

How to handle overenrollment: null

Students who enroll in this course will likely encounter and be expected to engage in the following intellectual skills, modes of learning, and assessment: Emphasis on visual analysis, close reading, written work, group work, in-class exams, and field trips. Students with documented disabilities who will require accommodations in this course should be in consultation with Accessibility Services and reach out to the faculty member as soon as possible to ensure that accommodations can be made in a timely manner.",Yael Rice,13,0,Open,,Tuesday/Thursday | 10:00 AM - 11:20 AM,,Tuesday/Thursday | 10:00 AM - 11:20 AM,Tuesday/Thursday,07:00,08:20,Art & the History of Art,152,01,
Fall 2023,Undergraduate,Lecture,"Architectural Studies

Art & the History of Art",ARCH 159-01/ ARHA 159-01 - Modernity & Avant-Garde,ARCH 159/ ARHA 159 - Modernity & Avant-Garde,Modernity & Avant-Garde,"(Offered as ARHA 159 and ARCH 159) This course is an examination of the emergence, development, and dissolution of European modernist art, architecture and design. The course begins with the innovations of the late nineteenth and early twentieth centuries, created in consort with the growth of modern urbanism, colonialist politics, and psychological experimentation. Distinctions between the terms modernity, modernism, and the avant-garde will be explored as we unpack the complex equations between art, politics, and social change in the first half of the twentieth century. Covering selected groups (such as Expressionism, Cubism, Dadaism, Surrealism, l'Esprit Nouveau, Bauhaus, and Constructivism), this course will consider themes such as mechanical reproduction, nihilism, nationalism, consumerism, and primitivism as they are disclosed in the making and reception of modernist art and architecture.
Limited to 50 students. Fall semester. Professor Koehler.

How to handle overenrollment: Preference to Art History and Architectural Studies majors.

Students who enroll in this course will likely encounter and be expected to engage in the following intellectual skills, modes of learning, and assessment: Emphasis on visual analysis and historical contextualization, through lecture, discussion, written work, readings, and group work.",Karen Koehler,15,50,Open,,Monday/Wednesday | 12:30 PM - 1:50 PM,,Monday/Wednesday | 12:30 PM - 1:50 PM,Monday/Wednesday,09:30,10:50,Art & the History of Art,159,01,
Fall 2023,Undergraduate,Lecture,"Architectural Studies

Art & the History of Art

Russian",ARCH 238-01/ ARHA 238-01/ RUSS 238-01 - Russian Arch and Cities,ARCH 238/ ARHA 238/ RUSS 238 - Russian Arch and Cities,Russian Arch and Cities,"(Offered as ARCH 238, ARHA 238, RUSS 238) This course investigates the complex relationship between Russia, its imperial subjects—in the Baltics, Caucasus, Central Asia, Eastern Europe, and Siberia—and global cultures of architecture and city-building. Case studies from across this vast territory (one-sixth of the Earth’s landmass) demonstrate that, far from being isolated on a “periphery” or behind an “Iron Curtain,” the region’s architects and planners actively participated in complex international design debates. How could buildings incorporate new technology and still reflect local cultures? What role should the state play in improving quality of life for the urban masses? Could redesigned spaces influence things like crime and public health? Beginning with Tsar Peter I’s construction of Saint Petersburg, proceeding through the rapid transformations of the Russian and Soviet empires, and concluding with the post-socialist “transition” of the 2000s, we will explore architecture and urban planning as tools of empire, modernization, and identity. Through lectures, research, writing, and discussion designed around visual and historical analysis, we will follow the region’s architects and policymakers as they interacted with, critiqued, selectively adopted, and influenced international architecture and city planning practices.
Limited to 25 students. Fall semester: Visiting Lecturer Wheeler.

How to handle overenrollment: Preference to Architecture majors, Russian majors, and Art/History of Art majors.

Students who enroll in this course will likely encounter and be expected to engage in the following intellectual skills, modes of learning, and assessment: Using visual analysis and research on historical context to craft arguments about the built environment, identifying ways that different political regimes use architecture and urban planning to achieve broader goals, responding critically to primary (historical) and secondary (contemporary) materials, and effectively using them in crafting an independent research project, communicating ideas through class discussion and formal presentations.",,2,25,Open,,Wednesday/Friday | 2:00 PM - 3:20 PM,,Wednesday/Friday | 2:00 PM - 3:20 PM,Wednesday/Friday,11:00,12:20,Architectural Studies,238,01,
Fall 2023,Undergraduate,Lecture,"Architectural Studies

Art & the History of Art

Black Studies",ARCH 257-01/ ARHA 257-01/ BLST 253-01 - Building Colonial Cities,ARCH 257/ ARHA 257/ BLST 253 - Building Colonial Cities,Building Colonial Cities,"(Offered as ARHA 257, ARCH 257, and BLST 253) Creole dwellings were first erected by enslaved builders working under Diego Colón (the son of Christopher Columbus) on the island of Hispaniola. By the end of the first wave of European expansion in the early nineteenth century, the creole style existed across imperial domains in the Caribbean, North and South America, Africa, the Indian Ocean, and even Asia. We will examine the global diffusion of this architectural typology from its emergence in the Spanish Caribbean to its florescence in British and French India in the eighteenth and nineteenth centuries. In doing so, we will address buildings and towns in former Spanish, French, Dutch, Portuguese, and British colonies worldwide. Some of the urban centers that we will engage include: Kingston, Jamaica; Pondicherry, India; Cape Town, South Africa; Cartagena, Colombia; Saint-Louis, Senegal; and Macau, China. In investigating both creole structures and the cities that harbored such forms, we will think through the social and economic factors that caused buildings and urban areas to display marked continuities despite geographical and imperial distinctions.
Limited to 34 students. Fall semester. Professor Carey.

How to handle overenrollment: null

Students who enroll in this course will likely encounter and be expected to engage in the following intellectual skills, modes of learning, and assessment: emphasis on written work, readings, independent research, oral presentations, and visual analysis.",Dwight Carey,4,0,Open,,Tuesday/Thursday | 1:00 PM - 2:20 PM,,Tuesday/Thursday | 1:00 PM - 2:20 PM,Tuesday/Thursday,10:00,11:20,Art & the History of Art,257,01,
Fall 2023,Undergraduate,Lecture,"Architectural Studies

European Studies",ARCH 369-01/ EUST 369-01 - TIME,ARCH 369/ EUST 369 - TIME,TIME,"(Offered as ARCH 369 and EUST 369) This research seminar will explore conceptions of time as they have informed and influenced thought and creativity in the fields of cultural studies, literature, architecture, urban studies, philosophy, neuroscience, performance, and the visual, electronic, and time-based arts. Students will select and pursue a major semester-long research project early in the semester in consultation with the professor, and present their research in its various stages of development throughout the semester, in a variety of media formats (writing, performance, video, electronic art/interactive media, installation, online and networked events, architectural/design drawings/renderings), along with oral presentations of readings and other materials. Readings and visual/sonic materials will be drawn from the fields of European literature, philosophy and critical theory; from architectural, art, music, neuroscience and film theory and history; from performance studies and performance theory; and from theories of technology and the natural and built environment. We will sustain a focus on issues of perception, cognition, duration, movement, attention, imagination, memory, and narrative throughout. Emphasis on developing research, writing, and presentation skills is central to this seminar. Conducted in English.
Preference given to ARCH and EUST majors, as well as to students interested in architecture/design, performance, film/video, interactive installation, and/or the environment. Limited to 12 students.
Fall semester: Professor Gilpin.

How to handle overenrollment: Preference given to Architectural Studies and European Studies majors

Students who enroll in this course will likely encounter and be expected to engage in the following intellectual skills, modes of learning, and assessment: An emphasis on instruction in languages other than English, in particular on listening, speaking, reading and writing skills, oral presentations, group work, in-class quizzes or exams. Students with documented disabilities who will require accommodations in this course should be in consultation with Accessibility Services and reach out to the professor as soon as possible to ensure that accommodations can be made in a timely manner.",Heidi Gilpin,4,12,Open,,Wednesday | 2:00 PM - 4:45 PM,,Wednesday | 2:00 PM - 4:45 PM,Wednesday,11:00,13:45,Architectural Studies,369,01,
Fall 2023,Undergraduate,Lecture,Architectural Studies,ARCH 490-01 - Special Topics (Special Topics),ARCH 490 - Special Topics,Special Topics,"Independent reading course.
Fall and spring semesters. The Department.

How to handle overenrollment: null

Students who enroll in this course will likely encounter and be expected to engage in the following intellectual skills, modes of learning, and assessment: Intellectual skills and modes of learning: -Student achieves the skill of close looking to gain visual understanding; -considers how art and its culture are intertwined; -develops critical skills to analyze points of view from a historical period other than their own; learns research skills in-depth; -develops an original idea in the final paper. Assessment based on: -discussion -written drafts -final project in scaffolded form, guided by regular meetings with professor",,0,0,Open,,,,,,,,Architectural Studies,490,01,
Fall 2023,Undergraduate,Lecture,Architectural Studies,ARCH 498-01 - Senior Honors (Senior Honors),ARCH 498 - Senior Honors,Senior Honors,"A full course. Fall semester. The Department.

How to handle overenrollment: null

Students who enroll in this course will likely encounter and be expected to engage in the following intellectual skills, modes of learning, and assessment: Intellectual skills and modes of learning: -Student achieves the skill of close looking to gain visual understanding; -considers how art and its culture are intertwined; -develops critical skills to analyze points of view from a historical period other than their own; learns research skills in-depth; -develops an original idea in the final paper. Assessment based on: -discussion -written drafts -final project in scaffolded form, guided by regular meetings with professor",,2,0,Open,,,,,,,,Architectural Studies,498,01,
Fall 2023,Undergraduate,Lecture,Art & the History of Art,ARHA 102-01 - The Practice of Art,ARHA 102 - The Practice of Art,The Practice of Art,"An introduction to two- and three-dimensional studio disciplines through hands-on engagement with materials supplemented by lectures, demonstrations and readings. Students will work through a variety of projects exploring drawing, sculpture, painting and hybrid forms. Work will be developed based on direct observation, memory, imagination and improvisation. Formal and conceptual concerns will be an integral aspect of the development of studio work. Historical and contemporary references will be used throughout the course to enhance and increase the student’s understanding of the visual vocabulary of art. Class time will be a balance of lectures, demonstrations, exercises, discussions and critiques. Weekly homework assignments will consist of studio work and critical readings. No prior studio experience needed.
Not open to students who have taken ARHA 111 or 215. Limited to 16 students. Fall semester. Visiting Lecturer Douglas Culhane. Spring semester. Instructor TBD.

How to handle overenrollment: Priority given to ARHA and ARCH majors. Others admitted to balance by class year and major.

Students who enroll in this course will likely encounter and be expected to engage in the following intellectual skills, modes of learning, and assessment: In-class studio work, oral presentations, in-class critiques including visual and verbal analysis.  Significant time working outside of class. Working independently",Douglas Culhane,16,16,Closed,,Tuesday/Thursday | 1:30 PM - 3:30 PM,,Tuesday/Thursday | 1:30 PM - 3:30 PM,Tuesday/Thursday,10:30,12:30,Art & the History of Art,102,01,
Fall 2023,Undergraduate,Lecture,Art & the History of Art,ARHA 111-01 - Drawing I,ARHA 111 - Drawing I,Drawing I,"An introductory course in the fundamentals of drawing. This course will be based in experience and observation, exploring various techniques and media in order to understand the basic formal vocabularies and conceptual issues in drawing; subject matter will include still life, landscape, interior, and figure. Weekly assignments, weekly critiques, final portfolio.
Limited to 14 students with 4 seats reserved for first-year students. Fall and Spring semesters. Instructor TBD.

How to handle overenrollment: Priority will be given first to ARHA Majors, Then evenly distributed between all classes

Students who enroll in this course will likely encounter and be expected to engage in the following intellectual skills, modes of learning, and assessment: In-class studio work, oral presentations, in-class critiques including visual and verbal analysis.  Significant time working outside of class. Working independently.",,43,14,Closed,,Monday/Wednesday | 9:00 AM - 11:00 AM,,Monday/Wednesday | 9:00 AM - 11:00 AM,Monday/Wednesday,06:00,08:00,Art & the History of Art,111,01,
Fall 2023,Undergraduate,Lecture,"Art & the History of Art

Asian Languages & Civilization",ARHA 147-01/ ASLC 147-01 - Arts of China,ARHA 147/ ASLC 147 - Arts of China,Arts of China,"(Offered as ARHA 147 and ASLC 143) An introduction to the history of Chinese art from its beginnings in neolithic times until the end of the twentieth century. Topics will include the ritual bronze vessels of the Shang and Zhou dynasties, the Chinese transformation of the Buddha image, imperial patronage of painting during the Song dynasty and the development of the literati tradition of painting and calligraphy. Particular weight will be given to understanding the cultural context of Chinese art.
Fall semester. Professor Morse.

How to handle overenrollment: null

Students who enroll in this course will likely encounter and be expected to engage in the following intellectual skills, modes of learning, and assessment: Written work, readings, oral presentations, group work, exams, field trips, visual analysis",Samuel Morse,10,0,Open,,Monday/Wednesday/Friday | 10:00 AM - 10:50 AM,,Monday/Wednesday/Friday | 10:00 AM - 10:50 AM,Monday/Wednesday/Friday,07:00,07:50,Art & the History of Art,147,01,
Fall 2023,Undergraduate,Lecture,Art & the History of Art,ARHA 187-01 - Contemp. Native Am. Art,ARHA 187 - Contemp. Native Am. Art,Contemp. Native Am. Art,"This course provides an introduction to Native American Indian art and architecture from North and Latin America. It focuses on the modern and contemporary periods (with some attention to archaeological art), exploring traditions in architecture, sculpture, painting, masks, textiles, and ceramics. The first half of the semester concentrates on the Woodlands, Plains, and Southwest; the second on the Northwest Coast, Arctic, Mexico and Guatemala, Central America, the Andes, and Amazonia. The course will be interdisciplinary, and will include Indigenous narratives, Native American aesthetics, and contemporary artists including photographers, videographers, and performance artists, as well as alternative curating and exhibition of Indigenous art.
Limited to 35 students. Fall semester. Visiting Professor Couch.

How to handle overenrollment: Priority would be given first to seniors, second to majors, and third to students working toward the 5 College Native American Studies Certificate.

Students who enroll in this course will likely encounter and be expected to engage in the following intellectual skills, modes of learning, and assessment: Not applicable.",Chris Couch,7,35,Open,,Monday/Wednesday | 2:30 PM - 4:00 PM,,Monday/Wednesday | 2:30 PM - 4:00 PM,Monday/Wednesday,11:30,13:00,Art & the History of Art,187,01,
Fall 2023,Undergraduate,Lecture,Art & the History of Art,ARHA 207-01 - Talking with Beads,ARHA 207 - Talking with Beads,Talking with Beads,"This studio art course focused on complex global beading traditions and techniques. We will study how the language of beadwork is used to tell stories, connect with ancestors, provide protection, create community, signify power, and challenge injustice. This course draws on the over 75,000-year usage of beads ranging from umbilical amulets (Native American) to abacuses (Middle East and Asia) to rosaries (Europe) to lukasa (Central Africa) to Zulu love letters (South Africa). Students will learn dozens of beading techniques (many unique to South African cultures where some of the earliest beads were discovered.) We will use beads to communicate, preserve, and encode messages. We will expand the definition of what constitutes a bead; use variation in size, color, shape, and material as metaphor; and design beaded memory devices. No prior beading experience is necessary but curiosity and commitment is required.
Limited to 18 students. Fall semester. Professor Clark.

How to handle overenrollment: Students will be randomly selected.

Students who enroll in this course will likely encounter and be expected to engage in the following intellectual skills, modes of learning, and assessment: Emphasis on artistic work and collaborative learning",Sonya Clark,19,18,Closed,,Tuesday/Thursday | 1:00 PM - 3:30 PM,,Tuesday/Thursday | 1:00 PM - 3:30 PM,Tuesday/Thursday,10:00,12:30,Art & the History of Art,207,01,
Fall 2023,Undergraduate,Lecture,Art & the History of Art,ARHA 213-01 - Printmaking I,ARHA 213 - Printmaking I,Printmaking I,"An introduction to intaglio and relief processes including drypoint, engraving, etching, aquatint, monoprints, woodcut and linocut. The development of imagery incorporating conceptual concerns in conjunction with specific techniques will be a crucial element in the progression of prints. Historical and contemporary references will be discussed to further enhance understanding of various techniques. Critiques will be held regularly with each assignment; critical analysis of prints utilizing correct printmaking terminology is expected. A final project of portfolio making and a portfolio exchange of an editioned print are required.
Limited to 10 students. Fall semester. Instructor TBD. Spring semester. Senior Resident Artist Garand.

How to handle overenrollment: Priority will be given to art majors, seniors, art majors from the 5-college consortium

Students who enroll in this course will likely encounter and be expected to engage in the following intellectual skills, modes of learning, and assessment: Artistic and studio work, oral presentations, in-class critiques including visual and verbal analysis, readings and written work",,10,10,Closed,,Monday/Wednesday | 1:00 PM - 4:00 PM,,Monday/Wednesday | 1:00 PM - 4:00 PM,Monday/Wednesday,10:00,13:00,Art & the History of Art,213,01,
Fall 2023,Undergraduate,Lecture,Art & the History of Art,ARHA 214-01 - Sculpture I,ARHA 214 - Sculpture I,Sculpture I,"An exploration of three-dimensional concepts, form, expression and aesthetics. In a series of directed projects students will encounter a range of materials and technical processes including construction, modeling and carving. Projects will include conceptual and critical strategies integrated with material concerns. By the end of the course students will have developed a strong understanding of basic principles of contemporary sculpture and acquired the skills and technical knowledge of materials to create accomplished works of three-dimensional expression. Students will develop an awareness of conceptual and critical issues in current and historical sculptural practice, establishing a foundation for continued training and self-directed work in sculpture and other artistic disciplines.
No prior studio experience is required. Limited to 12 students. Fall semester 2022.  Professor Monge.

How to handle overenrollment: Others admitted to balance by class year, major, and Five Colleges participation

Students who enroll in this course will likely encounter and be expected to engage in the following intellectual skills, modes of learning, and assessment: Studio art projects, class discussions, oral presentations, visual analysis, individual research.",Lucia Monge,16,12,Closed,,Tuesday/Thursday | 1:00 PM - 4:00 PM,,Tuesday/Thursday | 1:00 PM - 4:00 PM,Tuesday/Thursday,10:00,13:00,Art & the History of Art,214,01,
Fall 2023,Undergraduate,Lecture,Art & the History of Art,ARHA 215-01 - Painting I,ARHA 215 - Painting I,Painting I,"An introduction to the fundamentals of the pictorial organization of painting. Form, space, color, and pattern, abstracted from nature, are explored through the discipline of drawing by means of paint manipulation. Slide lectures, demonstrations, individual and group critiques are regular components of the studio sessions. Two three-hour meetings per week.
Fall semester. Requisite: ARHA 102 or 111 or consent of the instructor. Limited to 12 students. Senior Resident Artist Gloman.

How to handle overenrollment: Preference to ARHA majors, then to seniors

Students who enroll in this course will likely encounter and be expected to engage in the following intellectual skills, modes of learning, and assessment: Visual analysis, independent work, oral presentation, group work, artistic work, field work, critiques",David Gloman,12,12,Closed,,Tuesday/Thursday | 9:00 AM - 11:00 AM,,Tuesday/Thursday | 9:00 AM - 11:00 AM,Tuesday/Thursday,06:00,08:00,Art & the History of Art,215,01,
Fall 2023,Undergraduate,Lecture,Art & the History of Art,ARHA 218-01 - Photography I,ARHA 218 - Photography I,Photography I,"An introduction to black-and-white still photography. The basic elements of photographic technique will be taught as a means to explore both general pictorial structure and photography’s own unique visual language. Emphasis will be centered less on technical concerns and more on investigating how images can become vessels for both ideas and deeply human emotions. Weekly assignments, weekly critiques, readings, and slide lectures about the work of artist-photographers, one short paper, and a final portfolio involving an independent project of choice. Two three-hour meetings per week.
Limited to 12 students.  Fall semester. Instructor TBD. Spring semester. Professor Kimball.

How to handle overenrollment: Priority given to ARHA and ARCH majors. Others admitted to balance by class year and major.

Students who enroll in this course will likely encounter and be expected to engage in the following intellectual skills, modes of learning, and assessment: Emphasis on creative work, artistic practice, critical thinking, visual language and analysis, individual projects and group work.",,12,12,Closed,,Tuesday/Thursday | 1:00 PM - 4:00 PM,,Tuesday/Thursday | 1:00 PM - 4:00 PM,Tuesday/Thursday,10:00,13:00,Art & the History of Art,218,01,
Fall 2023,Undergraduate,Lecture,"Art & the History of Art

Film & Media Studies",ARHA 221-01/ FAMS 221-01 - Video Production,ARHA 221/ FAMS 221 - Video Production,Video Production,"(Offered as ARHA 221 and FAMS 221) This introductory course is designed for students with no prior experience in video production. The aim is both technical and creative. We will begin with the literal foundation of the moving image—the frame—before moving through shot and scene construction, lighting, sound-image concepts, and final edit. In addition to instruction in production equipment and facilities, the course will also explore cinematic form and structure through weekly readings, screenings and discussion. Each student will work on a series of production exercises and a final video assignment.
Limited to 12 students with instructor's permission. Fall and Spring Semester: Visiting Assistant Professor Drummer. Spring Semester: Professor Levine.

How to handle overenrollment: Priority will be given to FAMS and ARHA majors, then attention will be given to achieving a mix of majors and Five College participation.

Students who enroll in this course will likely encounter and be expected to engage in the following intellectual skills, modes of learning, and assessment: Emphasis on technical workshops, artistic practice, group critique, group work and readings of critical material.",Emily Drummer,11,0,Open,,Monday/Wednesday | 10:00 AM - 12:00 PM,,Monday/Wednesday | 10:00 AM - 12:00 PM,Monday/Wednesday,07:00,09:00,Art & the History of Art,221,01,
Fall 2023,Undergraduate,Lecture,Art & the History of Art,ARHA 222-01 - Drawing II,ARHA 222 - Drawing II,Drawing II,"A course appropriate for students with prior experience in basic principles of visual organization, who wish to investigate further aspects of pictorial construction abstracting from forms including the figure, landscape and organic still life. There will be weekly drawing assignments and critiques, in addition to a final project of a life size self portrait. 
Requisite: ARHA 102 or 111, or consent of the instructor. Limited to 12 students. Fall & Spring semesters. Fall: Professor Sweeney. Spring: Senior Resident Artist Gloman.

How to handle overenrollment: Priority given to ARHA majors and art majors from the 5-College Consortium.

Students who enroll in this course will likely encounter and be expected to engage in the following intellectual skills, modes of learning, and assessment: Visual analysis, independent work, oral presentation, group work, artistic work, field work, critiques",Robert Sweeney,5,12,Open,,Monday/Wednesday | 1:30 PM - 3:30 PM,,Monday/Wednesday | 1:30 PM - 3:30 PM,Monday/Wednesday,10:30,12:30,Art & the History of Art,222,01,
Fall 2023,Undergraduate,Lecture,Art & the History of Art,ARHA 246-01 - Public Art Collaborative,ARHA 246 - Public Art Collaborative,Public Art Collaborative,"Public Art and Collaborative Practices is a studio art course that is based on the premise that art is a form of care. It will focus on art in public space, collaborative art making practices, and activist art that addresses social and political issues. We will learn about artist collectives, socially engaged art, and practice working together in group projects. We will also analyze temporary and permanent public artworks and then make art with specific sites and communities in mind. Ultimately, we will dedicate the semester to thinking about art's potential for big and small change and participate in the transformation of our environment through making.
Limited to 15 students. Fall semester. Professor Monge.
Pending Faculty Approval

How to handle overenrollment: Priority given to seniors, then juniors, then sophomores with a balance of majors

Students who enroll in this course will likely encounter and be expected to engage in the following intellectual skills, modes of learning, and assessment: Studio art projects, visual analysis, readings, class discussions, group work, critique (group discussion) of projects.",Lucia Monge,5,15,Open,,Tuesday/Thursday | 9:00 AM - 11:00 AM,,Tuesday/Thursday | 9:00 AM - 11:00 AM,Tuesday/Thursday,06:00,08:00,Art & the History of Art,246,01,
Fall 2023,Undergraduate,Lecture,"Art & the History of Art

Asian Languages & Civilization",ARHA 266-01/ ASLC 261-01 - Culture of Jpn Religion,ARHA 266/ ASLC 261 - Culture of Jpn Religion,Culture of Jpn Religion,"(Offered as ARHA 266 and ASLC 261) This class is an interdisciplinary study of the visual culture of the Buddhist and Shintō religious traditions in Japan. It will examine in depth a number of Japan’s most important sacred places, including Ise Shrine, Tōdaiji, Daitokuji and Mount Fuji, and will also look at the way contemporary architects such as Andō Tadao and Takamatsu Shin have attempted to create new sacred places in Japan today. Particular emphasis will be placed on the ways in which the Japanese have given distinctive form to their religious beliefs through architecture, painting and sculpture, and the ways these objects have been used and continue to be used in religious ritual. Nevertheless, the class is meant to be a course on art history. Thus, social and historical details will always be grounded in close visual analyses of objects.
Fall Semester. Professor Morse.
Pending Faculty Approval

How to handle overenrollment: null

Students who enroll in this course will likely encounter and be expected to engage in the following intellectual skills, modes of learning, and assessment: Written work, group work, visual analysis",Samuel Morse,0,0,Open,,Monday/Wednesday/Friday | 12:00 PM - 12:50 PM,,Monday/Wednesday/Friday | 12:00 PM - 12:50 PM,Monday/Wednesday/Friday,09:00,09:50,Art & the History of Art,266,01,
Fall 2023,Undergraduate,Lecture,"Art & the History of Art

Film & Media Studies",ARHA 278-01/ FAMS 311-01 - Art + Code,ARHA 278/ FAMS 311 - Art + Code,Art + Code,"(Offered as ARHA 278 and FAMS 311) Introduction to computer programming for studio artists. By writing code to generate text and graphics, students will explore the qualities intrinsic to artistic expression with computers such as nonlinearity, indeterminacy, glitch, and emergence. Accompanying critical discussion will consider key practitioners in the field. Through progressive weekly projects, students will gain a foundation for working with code in art. Designed for students with little to no programming experience.
Limited to 12 students. Fall semester. Professor House.

How to handle overenrollment: Priority will be given first to ARHA majors then evenly distributed between all classes

Students who enroll in this course will likely encounter and be expected to engage in the following intellectual skills, modes of learning, and assessment: Programming-based studio art projects in textual and visual mediums, in-class critiques including visual and verbal analysis, oral presentations, basic math and geometry",Brian House,11,12,Open,,Monday/Wednesday | 9:00 AM - 11:00 AM,,Monday/Wednesday | 9:00 AM - 11:00 AM,Monday/Wednesday,06:00,08:00,Art & the History of Art,278,01,
Fall 2023,Undergraduate,Lecture,"Art & the History of Art

Asian Languages & Civilization",ARHA 280-01/ ASLC 280-01 - Museum in Digital Age,ARHA 280/ ASLC 280 - Museum in Digital Age,Museum in Digital Age,"(Offered as ARHA 280 and ASLC 280) Over recent decades, museums have made their collections increasingly accessible online. Curators, in turn, have expanded the limits of museum display and interpretation through experimentation with online exhibitions, onsite digital presentations, 3-D holographic projections, interactive mapping and storytelling, and network graphing. Others have made use of these and other digital tools for their own research, including to track the dispersal of looted and illegally exported objects. But what are the ramifications of this turn towards the digital? What does it mean to study museums and access their collections through the lenses of data, metadata, and digitization? What and whom do these digital shifts privilege? How might these new approaches shed light on the histories of museums, in particular their connections with colonialism, nationalism, and the trafficking of cultural heritage?
This course provides an introduction to the history and institution of the museum, with an emphasis on more recent developments in the digital domain. We will ask what actually constitutes museum data and then turn to consider how the digital collection, organization, interpretation, and presentation of this information informs our understanding of museum objects, exhibitions, and commercialization, and of art history as a whole. We will explore digital representations of art (3-D modeling and printing, for example) and accessibility, the differences between museum object metadata and image metadata, and the ethics and ecological costs of working with digital media and interfaces. For the final project, students will use digital tools to research and analyze objects that will be on view in a spring 2024 exhibition of paintings from India and Iran at the Smith College Museum of Art, the results of which will be showcased on a public website. This course centers hands-on collective learning--both in the classroom and in local museums--and is designed for students of all backgrounds. No previous knowledge of the subject is presumed, and instruction in the use of digital tools like Google Sheets, Palladio, and Tableau will be provided.
Limite to 18 students. Fall semester. Professor Rice.
Pending Faculty Approval

How to handle overenrollment: If overenrolled preference will be given to ARHA and ASLC majors.

Students who enroll in this course will likely encounter and be expected to engage in the following intellectual skills, modes of learning, and assessment: Emphasis on visual analysis, data sorting and cleaning, digital visualizations, close reading, oral presentations, written work, group work, and field trips.",Yael Rice,14,18,Open,,Tuesday/Thursday | 2:30 PM - 3:50 PM,,Tuesday/Thursday | 2:30 PM - 3:50 PM,Tuesday/Thursday,11:30,12:50,Art & the History of Art,280,01,
Fall 2023,Undergraduate,Lecture,"Art & the History of Art

Classics

European Studies",ARHA 285-01/ CLAS 285-01/ EUST 285-01 - Roma Redux,ARHA 285/ CLAS 285/ EUST 285 - Roma Redux,Roma Redux,"(Offered as ARHA 285, CLAS 285, EUST 285) From its legendary origins in the eighth century BCE, through its political framing as a republic, to its global dominion as an empire and its subsequent Renaissance revival as the center of a Christian empire, Rome was a seat of unmistakable political and cultural power. Its art and architecture, the literature and oratory of its leaders, its devotion to protective deities, and its styles of governance became the model for countless nations who sought to imitate, adopt and surpass Rome’s authority. The continuity and change visible in the rich material composing the city itself—temples, churches, sculpture, painting, fountains, tombs, palaces, baths, streets, walls, fora and piazzas—will be the subject of the class. Meeting twice a week, classes will alternate between examining the philosophy, literature, and historical documents of a period and analyzing selected examples of the art and architecture where the daily life of Romans—from soldiers, citizens and emperors, to women, Jews, and the enslaved—took place. The class will culminate in a trip to the Eternal City for two weeks in January 2024, sponsored by the Office of the Provost.
The class (limited to 18) will live in Rome and make daily excursions to places studied in the course—e.g., the Roman forum, the remains of the imperial palace on the Palatine, the Colosseum, aqueducts, medieval, Renaissance and Baroque churches, the Vatican Palace, St. Peter’s, and more. Students will prepare presentations in situ related to the papers they have written earlier in class. Three class hours per week.
Not open to first-year students. Admission with the consent of the instructor. Fall semester. Professors Courtright and van den Berg.
Pending Faculty Approval

How to handle overenrollment: Interviews and reviews of students’ academic record will take place in Spring 2023 to determine the composition of the class. Preference is given to majors in the ARHA and Classics Departments, then rising seniors, juniors, and sophomores.

Students who enroll in this course will likely encounter and be expected to engage in the following intellectual skills, modes of learning, and assessment: Students will interpret art and material culture, read philosophy, literature and history, and complete several papers and presentations. The course includes international travel.","Christopher van den Berg

Nicola Courtright",41,18,Closed,,Monday/Wednesday | 12:30 PM - 1:50 PM,,Monday/Wednesday | 12:30 PM - 1:50 PM,Monday/Wednesday,09:30,10:50,Classics,285,01,
Fall 2023,Undergraduate,Lecture,Art & the History of Art,ARHA 294-01 - Open Circuits,ARHA 294 - Open Circuits,Open Circuits,"Introduction to basic electronics and microcontrollers for studio artists. Students will program chips to control sensors, switches, motors, and lights to create responsive objects and performative tools. Readings and critical discussion will situate our circuits in histories of interactive art, electronics-based and otherwise. Students will create studio-based art for critique. No prior experience with electronics or programming is required, but ARHA 278: Art + Code is recommended.
Limited to 10 students. Fall semester. Professor House.
Pending Faculty Approval

How to handle overenrollment: Priority will be given first to students who have taken ARHA 278, to ARHA majors, and then evenly distributed among all classes

Students who enroll in this course will likely encounter and be expected to engage in the following intellectual skills, modes of learning, and assessment: Electronics-based studio art projects in textual and visual mediums, in-class critiques including visual and verbal analysis, oral presentations, soldering and circuits, basic programming",Brian House,4,10,Open,,Monday/Wednesday | 1:00 PM - 3:00 PM,,Monday/Wednesday | 1:00 PM - 3:00 PM,Monday/Wednesday,10:00,12:00,Art & the History of Art,294,01,
Fall 2023,Undergraduate,Lecture,Art & the History of Art,ARHA 323-01 - Adv Studio Seminar,ARHA 323 - Adv Studio Seminar,Adv Studio Seminar,"A studio course that will emphasize compositional development by working from memory, imagination, literature and abstractions derived from nature and other works of visual art. The Students will be encouraged to explore a wide variety of media including, but not limited to, drawing, painting, printmaking, sculpture and collage. Students will be required to create an independent body of work over the course of the semester which explores their individual direction in pictorial construction. 
Requisite: ARHA 222, 326 or 327 or permission of the instructor. Limited to 5 students. Fall semester. Professor R. Sweeney.

How to handle overenrollment: Priority given to ARHA majors. 

Students who enroll in this course will likely encounter and be expected to engage in the following intellectual skills, modes of learning, and assessment: Visual analysis, independent work, oral presentation, group work, artistic work, field work, critiques",Robert Sweeney,3,8,Open,,Monday/Wednesday | 9:00 AM - 11:00 AM,,Monday/Wednesday | 9:00 AM - 11:00 AM,Monday/Wednesday,06:00,08:00,Art & the History of Art,323,01,
Fall 2023,Undergraduate,Lecture,"Art & the History of Art

Film & Media Studies",ARHA 335-01/ FAMS 335-01 - Experiments-16 mm Film,ARHA 335/ FAMS 335 - Experiments-16 mm Film,Experiments-16 mm Film,"(Offered as ARHA 335 and FAMS 335) This intermediate production course surveys the outer limits of cinematic expression and provides an overview of creative 16mm film production. We will begin by making cameraless projects through drawing, painting and scratching directly onto the film strip before further exploring the fundamentals of 16mm technology, including cameras, editing and hand-processing. While remaining aware of our creative choices, we will invite chance into our process and risk failure, as every experiment inevitably must.
Through screenings of original film prints, assigned readings and discussion, the course will consider a number of experimental filmmakers and then conclude with a review of exhibition and distribution strategies for moving image art. All students will complete a number of short assignments on film and one final project on either film or video, each of which is to be presented for class critique. One three-hour class and one film screening per week.
Requisite: One 200-level production course or relevant experience (to be discussed with the instructor in advance of the first class). Limited to 12 students. Fall semester. Professor Levine.

How to handle overenrollment: Priority given to ARHA/FAMS majors

Students who enroll in this course will likely encounter and be expected to engage in the following intellectual skills, modes of learning, and assessment: Emphasis on technical workshops, artistic practice, group critique, critical readings and film screenings.",Adam Levine,6,12,Open,,Monday/Wednesday | 1:00 PM - 4:00 PM,,Monday/Wednesday | 1:00 PM - 4:00 PM,Monday/Wednesday,10:00,13:00,Art & the History of Art,335,01,
Fall 2023,Undergraduate,Lecture,"Art & the History of Art

Latinx and Latin Amer Studies

Spanish",ARHA 380-01/ LLAS 380-01/ SPAN 380-01 - Art and Global War,ARHA 380/ LLAS 380/ SPAN 380 - Art and Global War,Art and Global War,"(Offered as SPAN 380, ARHA 380 and LLAS 380) The class will explore the work of artists, art collectives, and community-based projects in Latin America and the U.S. from the 1960s onwards. We will look at how cultural agents “make worlds” to resist, denounce, and transform lives at war. Students will actively participate in both research and creative projects. We will focus on works from Colombia, Mexico, Cuba, Argentina, Chile, and the U.S. Course conducted in Spanish.
Requisite: SPAN 301 or consent of the instructor. Fall semester. Visiting Professor Ferrari.
